# LSST y-band total throughput at airmass 1.2
# File taken from https://dev.lsstcorp.org/cgit/LSST/sims/throughputs.git/snapshot/throughputs-1.2.tar.gz
#
#  Thinned by galsim.utilities.thin_tabulated_values to a relative error of 1.e-3
#
# Wavelength(nm)  Throughput(0-1)
     383.90       0.00000
     388.70       0.00009
     389.30       0.00035
     392.60       0.00000
     396.10       0.00006
     396.40       0.00005
     399.60       0.00000
     414.70       0.00006
     416.20       0.00008
     416.40       0.00015
     419.00       0.00002
     421.30       0.00016
     426.10       0.00009
     426.20       0.00018
     427.60       0.00036
     427.80       0.00018
     427.90       0.00009
     436.20       0.00003
     437.10       0.00004
     448.00       0.00000
     452.80       0.00000
     454.30       0.00001
     456.40       0.00067
     456.70       0.00033
     456.90       0.00011
     457.00       0.00000
     465.00       0.00006
     478.40       0.00005
     480.00       0.00002
     500.10       0.00008
     500.90       0.00017
     513.90       0.00000
     519.00       0.00001
     537.20       0.00006
     538.00       0.00009
     538.90       0.00015
     550.00       0.00004
     578.20       0.00002
     581.70       0.00005
     586.40       0.00004
     592.90       0.00005
     609.30       0.00006
     609.60       0.00005
     617.70       0.00001
     624.40       0.00001
     627.30       0.00005
     633.50       0.00046
     634.00       0.00031
     634.80       0.00014
     636.40       0.00004
     650.40       0.00011
     654.80       0.00007
     656.10       0.00005
     681.50       0.00001
     728.30       0.00000
     741.30       0.00000
     823.30       0.00004
     831.80       0.00009
     843.00       0.00015
     858.10       0.00033
     865.00       0.00037
     869.40       0.00082
     872.40       0.00156
     881.10       0.00338
     882.20       0.00374
     886.10       0.00578
     888.10       0.00737
     890.50       0.00984
     892.90       0.01286
     895.30       0.01647
     895.90       0.01737
     898.40       0.02294
     899.20       0.02431
     901.10       0.03272
     901.90       0.03657
     902.40       0.03915
     902.60       0.04020
     902.80       0.04125
     904.50       0.05400
     906.00       0.06418
     906.30       0.06564
     907.20       0.07032
     907.90       0.07582
     908.50       0.08194
     908.90       0.08623
     911.40       0.11614
     912.00       0.12252
     912.50       0.12671
     913.70       0.13589
     915.10       0.14814
     915.30       0.14804
     915.90       0.14763
     916.00       0.14755
     917.00       0.16227
     917.10       0.16223
     917.20       0.16218
     917.70       0.16181
     917.90       0.16161
     918.50       0.17203
     919.00       0.18288
     919.60       0.19336
     919.70       0.19512
     920.70       0.21594
     922.20       0.24541
     922.40       0.24993
     923.10       0.26488
     923.20       0.26619
     923.40       0.26879
     923.70       0.27267
     924.40       0.28011
     926.50       0.30026
     927.00       0.30500
     927.50       0.29881
     928.00       0.29237
     928.80       0.29496
     929.20       0.29401
     930.00       0.28712
     930.70       0.27948
     930.90       0.27709
     931.10       0.27335
     932.00       0.24887
     932.10       0.24935
     932.20       0.24983
     933.00       0.25332
     933.60       0.23797
     933.70       0.23528
     933.90       0.22980
     934.00       0.22701
     935.00       0.26063
     935.20       0.26249
     935.70       0.26712
     936.40       0.27090
     937.10       0.27459
     937.70       0.28820
     937.90       0.29277
     938.00       0.29505
     939.00       0.34256
     939.10       0.34594
     939.40       0.35603
     940.00       0.37605
     940.20       0.37047
     940.60       0.35937
     941.00       0.34835
     942.00       0.35564
     942.50       0.32522
     942.80       0.30706
     942.90       0.30102
     943.00       0.29498
     943.60       0.29649
     943.90       0.29724
     944.00       0.29749
     945.00       0.31945
     945.10       0.31787
     945.30       0.31473
     946.00       0.30374
     946.40       0.31494
     946.80       0.32610
     946.90       0.32888
     947.00       0.33166
     948.00       0.29961
     948.10       0.30470
     948.20       0.30977
     948.40       0.31990
     948.60       0.32999
     949.00       0.35006
     949.60       0.31670
     949.90       0.30014
     950.00       0.29464
     950.40       0.31792
     951.00       0.35240
     951.10       0.34720
     951.20       0.34202
     951.50       0.32655
     951.60       0.32142
     952.00       0.30099
     953.00       0.30940
     953.40       0.31520
     954.00       0.32379
     955.00       0.31789
     955.20       0.31507
     955.40       0.31225
     955.60       0.30944
     955.70       0.30803
     956.00       0.30383
     956.80       0.30702
     957.00       0.30780
     957.30       0.31553
     957.60       0.32323
     957.80       0.32835
     957.90       0.33090
     958.00       0.33345
     959.00       0.30940
     959.10       0.30972
     959.20       0.31005
     959.60       0.31135
     960.00       0.31263
     960.30       0.31811
     961.00       0.33077
     962.10       0.32756
     962.60       0.32443
     962.80       0.32319
     962.90       0.32257
     964.30       0.32684
     965.00       0.32801
     965.20       0.32756
     966.00       0.32574
     966.60       0.31894
     966.80       0.31669
     967.00       0.31445
     968.00       0.34260
     968.10       0.34189
     968.30       0.34046
     968.80       0.33692
     969.70       0.33284
     971.20       0.32845
     973.50       0.30947
     974.30       0.30301
     974.60       0.30012
     974.70       0.29916
     975.00       0.29629
     976.00       0.29293
     976.50       0.29711
     976.70       0.29875
     976.90       0.30039
     977.00       0.30120
     977.50       0.29955
     977.80       0.29855
     979.40       0.29034
     980.00       0.28810
     980.10       0.28866
     980.40       0.29031
     981.00       0.29352
     982.10       0.28902
     982.40       0.28699
     983.00       0.28295
     983.50       0.28407
     983.60       0.28428
     983.80       0.28471
     984.00       0.28512
     985.10       0.27731
     985.40       0.27736
     986.00       0.27742
     986.60       0.27454
     989.50       0.26159
     991.50       0.25235
     995.40       0.23284
     998.70       0.21574
    1002.00       0.19962
    1002.70       0.19707
    1003.90       0.19222
    1006.30       0.18185
    1010.20       0.16391
    1010.60       0.16245
    1012.70       0.15351
    1017.00       0.13530
    1020.60       0.12093
    1028.30       0.09258
    1030.00       0.08661
    1033.00       0.07721
    1037.60       0.06418
    1040.00       0.05763
    1044.00       0.04809
    1048.00       0.03891
    1050.80       0.03308
    1056.00       0.02402
    1059.90       0.01808
    1062.30       0.01525
    1066.00       0.01153
    1070.00       0.00845
    1080.00       0.00386
    1086.00       0.00203
    1091.20       0.00092
    1101.00       0.00000
